time[s] cpu.0.freq[MHz] cpu.0.recload cpu.0.load max(freqs)[MHz] sum(recloads) max(recloads) sum(loads) max(loads)
0.025 2000 0.001 0.001 2000 0.001 0.001 0.001 0.001
0.050 2000 0.002 0.002 2000 0.002 0.002 0.002 0.002
0.075 2000 0.003 0.003 2000 0.003 0.003 0.003 0.003
0.100 2000 0.003 0.003 2000 0.003 0.003 0.003 0.003
0.125 2000 0.004 0.004 2000 0.004 0.004 0.004 0.004
0.150 2000 0.005 0.005 2000 0.005 0.005 0.005 0.005
0.175 2000 0.006 0.006 2000 0.006 0.006 0.006 0.006
0.200 2000 0.007 0.007 2000 0.007 0.007 0.007 0.007
0.225 2000 0.007 0.007 2000 0.007 0.007 0.007 0.007
0.250 2000 0.008 0.008 2000 0.008 0.008 0.008 0.008
0.275 2000 0.009 0.009 2000 0.009 0.009 0.009 0.009
0.300 1800 0.010 0.011 1800 0.010 0.010 0.011 0.011
0.325 1800 0.011 0.012 1800 0.011 0.011 0.012 0.012
0.350 1800 0.012 0.013 1800 0.012 0.012 0.013 0.013
0.375 1800 0.013 0.014 1800 0.013 0.013 0.014 0.014
0.400 1800 0.013 0.015 1800 0.013 0.013 0.015 0.015
0.425 1800 0.014 0.016 1800 0.014 0.014 0.016 0.016
0.450 1800 0.015 0.017 1800 0.015 0.015 0.017 0.017
0.475 1800 0.016 0.018 1800 0.016 0.016 0.018 0.018
0.500 1800 0.017 0.019 1800 0.017 0.017 0.019 0.019
0.525 1800 0.018 0.019 1800 0.018 0.018 0.019 0.019
0.550 1600 0.018 0.023 1600 0.018 0.018 0.023 0.023
0.575 1600 0.019 0.024 1600 0.019 0.019 0.024 0.024
0.600 1600 0.020 0.025 1600 0.020 0.020 0.025 0.025
0.625 1600 0.021 0.026 1600 0.021 0.021 0.026 0.026
0.650 1600 0.022 0.027 1600 0.022 0.022 0.027 0.027
0.675 1600 0.022 0.028 1600 0.022 0.022 0.028 0.028
0.700 1600 0.023 0.029 1600 0.023 0.023 0.029 0.029
0.725 1600 0.024 0.030 1600 0.024 0.024 0.030 0.030
0.750 1600 0.025 0.031 1600 0.025 0.025 0.031 0.031
0.775 1600 0.026 0.032 1600 0.026 0.026 0.032 0.032
0.800 1400 0.027 0.038 1400 0.027 0.027 0.038 0.038
0.825 1400 0.028 0.039 1400 0.028 0.028 0.039 0.039
0.850 1400 0.028 0.040 1400 0.028 0.028 0.040 0.040
0.875 1400 0.029 0.042 1400 0.029 0.029 0.042 0.042
0.900 1400 0.030 0.043 1400 0.030 0.030 0.043 0.043
0.925 1400 0.031 0.044 1400 0.031 0.031 0.044 0.044
0.950 1400 0.032 0.045 1400 0.032 0.032 0.045 0.045
0.975 1400 0.033 0.046 1400 0.033 0.033 0.046 0.046
1.000 1400 0.033 0.048 1400 0.033 0.033 0.048 0.048
1.025 1400 0.034 0.049 1400 0.034 0.034 0.049 0.049
1.050 1400 0.035 0.050 1400 0.035 0.035 0.050 0.050
1.075 1200 0.036 0.060 1200 0.036 0.036 0.060 0.060
1.100 1200 0.037 0.061 1200 0.037 0.037 0.061 0.061
1.125 1200 0.037 0.062 1200 0.037 0.037 0.062 0.062
1.150 1200 0.038 0.064 1200 0.038 0.038 0.064 0.064
1.175 1200 0.039 0.065 1200 0.039 0.039 0.065 0.065
1.200 1200 0.040 0.067 1200 0.040 0.040 0.067 0.067
1.225 1200 0.041 0.068 1200 0.041 0.041 0.068 0.068
1.250 1200 0.042 0.069 1200 0.042 0.042 0.069 0.069
1.275 1200 0.043 0.071 1200 0.043 0.043 0.071 0.071
1.300 1200 0.043 0.072 1200 0.043 0.043 0.072 0.072
1.325 1100 0.044 0.080 1100 0.044 0.044 0.080 0.080
1.350 1100 0.045 0.082 1100 0.045 0.045 0.082 0.082
1.375 1100 0.046 0.083 1100 0.046 0.046 0.083 0.083
1.400 1100 0.047 0.085 1100 0.047 0.047 0.085 0.085
1.425 1100 0.048 0.086 1100 0.048 0.048 0.086 0.086
1.450 1100 0.048 0.088 1100 0.048 0.048 0.088 0.088
1.475 1100 0.049 0.089 1100 0.049 0.049 0.089 0.089
1.500 1100 0.050 0.091 1100 0.050 0.050 0.091 0.091
1.525 1100 0.051 0.092 1100 0.051 0.051 0.092 0.092
1.550 1100 0.052 0.094 1100 0.052 0.052 0.094 0.094
1.575 900 0.052 0.117 900 0.052 0.052 0.117 0.117
1.600 900 0.053 0.119 900 0.053 0.053 0.119 0.119
1.625 900 0.054 0.120 900 0.054 0.054 0.120 0.120
1.650 900 0.055 0.122 900 0.055 0.055 0.122 0.122
1.675 900 0.056 0.124 900 0.056 0.056 0.124 0.124
1.700 900 0.057 0.126 900 0.057 0.057 0.126 0.126
1.725 900 0.058 0.128 900 0.058 0.058 0.128 0.128
1.750 900 0.058 0.130 900 0.058 0.058 0.130 0.130
1.775 900 0.059 0.131 900 0.059 0.059 0.131 0.131
1.800 900 0.060 0.133 900 0.060 0.060 0.133 0.133
1.825 900 0.061 0.135 900 0.061 0.061 0.135 0.135
1.850 800 0.062 0.154 800 0.062 0.062 0.154 0.154
1.875 800 0.062 0.156 800 0.062 0.062 0.156 0.156
1.900 800 0.063 0.158 800 0.063 0.063 0.158 0.158
1.925 800 0.064 0.160 800 0.064 0.064 0.160 0.160
1.950 800 0.065 0.163 800 0.065 0.065 0.163 0.163
1.975 800 0.066 0.165 800 0.066 0.066 0.165 0.165
2.000 800 0.067 0.167 800 0.067 0.067 0.167 0.167
2.025 800 0.068 0.169 800 0.068 0.068 0.169 0.169
2.050 800 0.068 0.171 800 0.068 0.068 0.171 0.171
2.075 800 0.069 0.173 800 0.069 0.069 0.173 0.173
2.100 700 0.070 0.200 700 0.070 0.070 0.200 0.200
2.125 700 0.071 0.202 700 0.071 0.071 0.202 0.202
2.150 700 0.072 0.205 700 0.072 0.072 0.205 0.205
2.175 700 0.072 0.207 700 0.072 0.072 0.207 0.207
2.200 700 0.073 0.210 700 0.073 0.073 0.210 0.210
2.225 700 0.074 0.212 700 0.074 0.074 0.212 0.212
2.250 700 0.075 0.214 700 0.075 0.075 0.214 0.214
2.275 700 0.076 0.217 700 0.076 0.076 0.217 0.217
2.300 700 0.077 0.219 700 0.077 0.077 0.219 0.219
2.325 700 0.077 0.221 700 0.077 0.077 0.221 0.221
2.350 600 0.078 0.261 600 0.078 0.078 0.261 0.261
2.375 600 0.079 0.264 600 0.079 0.079 0.264 0.264
2.400 600 0.080 0.267 600 0.080 0.080 0.267 0.267
2.425 600 0.081 0.269 600 0.081 0.081 0.269 0.269
2.450 600 0.082 0.272 600 0.082 0.082 0.272 0.272
2.475 600 0.083 0.275 600 0.083 0.083 0.275 0.275
2.500 600 0.083 0.278 600 0.083 0.083 0.278 0.278
2.525 600 0.084 0.281 600 0.084 0.084 0.281 0.281
2.550 600 0.085 0.283 600 0.085 0.085 0.283 0.283
2.575 600 0.086 0.286 600 0.086 0.086 0.286 0.286
2.600 600 0.087 0.289 600 0.087 0.087 0.289 0.289
2.625 600 0.087 0.292 600 0.087 0.087 0.292 0.292
2.650 600 0.088 0.294 600 0.088 0.088 0.294 0.294
2.675 600 0.089 0.297 600 0.089 0.089 0.297 0.297
2.700 600 0.090 0.300 600 0.090 0.090 0.300 0.300
2.725 600 0.091 0.303 600 0.091 0.091 0.303 0.303
2.750 600 0.092 0.306 600 0.092 0.092 0.306 0.306
2.775 600 0.092 0.308 600 0.092 0.092 0.308 0.308
2.800 600 0.093 0.311 600 0.093 0.093 0.311 0.311
2.825 600 0.094 0.314 600 0.094 0.094 0.314 0.314
2.850 600 0.095 0.317 600 0.095 0.095 0.317 0.317
2.875 500 0.096 0.383 500 0.096 0.096 0.383 0.383
2.900 500 0.097 0.387 500 0.097 0.097 0.387 0.387
2.925 500 0.098 0.390 500 0.098 0.098 0.390 0.390
2.950 500 0.098 0.393 500 0.098 0.098 0.393 0.393
2.975 500 0.099 0.397 500 0.099 0.099 0.397 0.397
3.000 500 0.100 0.400 500 0.100 0.100 0.400 0.400
3.025 500 0.101 0.403 500 0.101 0.101 0.403 0.403
3.050 500 0.102 0.407 500 0.102 0.102 0.407 0.407
3.075 500 0.102 0.410 500 0.102 0.102 0.410 0.410
3.100 500 0.103 0.413 500 0.103 0.103 0.413 0.413
3.125 500 0.104 0.417 500 0.104 0.104 0.417 0.417
3.150 500 0.105 0.420 500 0.105 0.105 0.420 0.420
3.175 500 0.106 0.423 500 0.106 0.106 0.423 0.423
3.200 500 0.107 0.427 500 0.107 0.107 0.427 0.427
3.225 500 0.107 0.430 500 0.107 0.107 0.430 0.430
3.250 500 0.108 0.433 500 0.108 0.108 0.433 0.433
3.275 500 0.109 0.437 500 0.109 0.109 0.437 0.437
3.300 500 0.110 0.440 500 0.110 0.110 0.440 0.440
3.325 500 0.111 0.443 500 0.111 0.111 0.443 0.443
3.350 500 0.112 0.447 500 0.112 0.112 0.447 0.447
3.375 500 0.113 0.450 500 0.113 0.113 0.450 0.450
3.400 500 0.113 0.453 500 0.113 0.113 0.453 0.453
3.425 500 0.114 0.457 500 0.114 0.114 0.457 0.457
3.450 500 0.115 0.460 500 0.115 0.115 0.460 0.460
3.475 500 0.116 0.463 500 0.116 0.116 0.463 0.463
3.500 500 0.117 0.467 500 0.117 0.117 0.467 0.467
3.525 500 0.117 0.470 500 0.117 0.117 0.470 0.470
3.550 500 0.118 0.473 500 0.118 0.118 0.473 0.473
3.575 500 0.119 0.477 500 0.119 0.119 0.477 0.477
3.600 500 0.120 0.480 500 0.120 0.120 0.480 0.480
3.625 500 0.121 0.483 500 0.121 0.121 0.483 0.483
3.650 500 0.122 0.487 500 0.122 0.122 0.487 0.487
3.675 500 0.122 0.490 500 0.122 0.122 0.490 0.490
3.700 500 0.123 0.493 500 0.123 0.123 0.493 0.493
3.725 500 0.124 0.497 500 0.124 0.124 0.497 0.497
3.750 500 0.125 0.500 500 0.125 0.125 0.500 0.500
3.775 500 0.126 0.503 500 0.126 0.126 0.503 0.503
3.800 500 0.127 0.507 500 0.127 0.127 0.507 0.507
3.825 500 0.128 0.510 500 0.128 0.128 0.510 0.510
3.850 500 0.128 0.513 500 0.128 0.128 0.513 0.513
3.875 500 0.129 0.517 500 0.129 0.129 0.517 0.517
3.900 500 0.130 0.520 500 0.130 0.130 0.520 0.520
3.925 500 0.131 0.523 500 0.131 0.131 0.523 0.523
3.950 500 0.132 0.527 500 0.132 0.132 0.527 0.527
3.975 500 0.133 0.530 500 0.133 0.133 0.530 0.530
4.000 500 0.133 0.533 500 0.133 0.133 0.533 0.533
4.025 500 0.134 0.537 500 0.134 0.134 0.537 0.537
4.050 500 0.135 0.540 500 0.135 0.135 0.540 0.540
4.075 500 0.136 0.543 500 0.136 0.136 0.543 0.543
4.100 500 0.137 0.547 500 0.137 0.137 0.547 0.547
4.125 500 0.138 0.550 500 0.138 0.138 0.550 0.550
4.150 500 0.138 0.553 500 0.138 0.138 0.553 0.553
4.175 500 0.139 0.557 500 0.139 0.139 0.557 0.557
4.200 500 0.140 0.560 500 0.140 0.140 0.560 0.560
4.225 500 0.141 0.563 500 0.141 0.141 0.563 0.563
4.250 500 0.142 0.567 500 0.142 0.142 0.567 0.567
4.275 500 0.142 0.570 500 0.142 0.142 0.570 0.570
4.300 500 0.143 0.573 500 0.143 0.143 0.573 0.573
4.325 500 0.144 0.577 500 0.144 0.144 0.577 0.577
4.350 500 0.145 0.580 500 0.145 0.145 0.580 0.580
4.375 500 0.146 0.583 500 0.146 0.146 0.583 0.583
4.400 500 0.147 0.587 500 0.147 0.147 0.587 0.587
4.425 500 0.147 0.590 500 0.147 0.147 0.590 0.590
4.450 500 0.148 0.593 500 0.148 0.148 0.593 0.593
4.475 500 0.149 0.597 500 0.149 0.149 0.597 0.597
4.500 500 0.150 0.600 500 0.150 0.150 0.600 0.600
4.525 500 0.151 0.603 500 0.151 0.151 0.603 0.603
4.550 500 0.152 0.607 500 0.152 0.152 0.607 0.607
4.575 500 0.152 0.610 500 0.152 0.152 0.610 0.610
4.600 500 0.153 0.613 500 0.153 0.153 0.613 0.613
4.625 500 0.154 0.617 500 0.154 0.154 0.617 0.617
4.650 500 0.155 0.620 500 0.155 0.155 0.620 0.620
4.675 500 0.156 0.623 500 0.156 0.156 0.623 0.623
4.700 500 0.157 0.627 500 0.157 0.157 0.627 0.627
4.725 500 0.158 0.630 500 0.158 0.158 0.630 0.630
4.750 500 0.158 0.633 500 0.158 0.158 0.633 0.633
4.775 500 0.159 0.637 500 0.159 0.159 0.637 0.637
4.800 500 0.160 0.640 500 0.160 0.160 0.640 0.640
4.825 500 0.161 0.643 500 0.161 0.161 0.643 0.643
4.850 500 0.162 0.647 500 0.162 0.162 0.647 0.647
4.875 500 0.163 0.650 500 0.163 0.163 0.650 0.650
4.900 500 0.163 0.653 500 0.163 0.163 0.653 0.653
4.925 500 0.164 0.657 500 0.164 0.164 0.657 0.657
4.950 500 0.165 0.660 500 0.165 0.165 0.660 0.660
4.975 500 0.166 0.663 500 0.166 0.166 0.663 0.663
5.000 500 0.167 0.667 500 0.167 0.167 0.667 0.667
5.025 500 0.168 0.670 500 0.168 0.168 0.670 0.670
5.050 500 0.168 0.673 500 0.168 0.168 0.673 0.673
5.075 500 0.169 0.677 500 0.169 0.169 0.677 0.677
5.100 500 0.170 0.680 500 0.170 0.170 0.680 0.680
5.125 500 0.171 0.683 500 0.171 0.171 0.683 0.683
5.150 500 0.172 0.687 500 0.172 0.172 0.687 0.687
5.175 500 0.172 0.690 500 0.172 0.172 0.690 0.690
5.200 500 0.173 0.693 500 0.173 0.173 0.693 0.693
5.225 500 0.174 0.697 500 0.174 0.174 0.697 0.697
5.250 500 0.175 0.700 500 0.175 0.175 0.700 0.700
5.275 500 0.176 0.703 500 0.176 0.176 0.703 0.703
5.300 500 0.177 0.707 500 0.177 0.177 0.707 0.707
5.325 500 0.177 0.710 500 0.177 0.177 0.710 0.710
5.350 500 0.178 0.713 500 0.178 0.178 0.713 0.713
5.375 500 0.179 0.717 500 0.179 0.179 0.717 0.717
5.400 500 0.180 0.720 500 0.180 0.180 0.720 0.720
5.425 500 0.181 0.723 500 0.181 0.181 0.723 0.723
5.450 500 0.182 0.727 500 0.182 0.182 0.727 0.727
5.475 500 0.182 0.730 500 0.182 0.182 0.730 0.730
5.500 500 0.183 0.733 500 0.183 0.183 0.733 0.733
5.525 500 0.184 0.737 500 0.184 0.184 0.737 0.737
5.550 500 0.185 0.740 500 0.185 0.185 0.740 0.740
5.575 500 0.186 0.743 500 0.186 0.186 0.743 0.743
5.600 500 0.187 0.747 500 0.187 0.187 0.747 0.747
5.625 500 0.188 0.750 500 0.188 0.188 0.750 0.750
5.650 500 0.188 0.753 500 0.188 0.188 0.753 0.753
5.675 500 0.189 0.757 500 0.189 0.189 0.757 0.757
5.700 500 0.190 0.760 500 0.190 0.190 0.760 0.760
5.725 500 0.191 0.763 500 0.191 0.191 0.763 0.763
5.750 500 0.192 0.767 500 0.192 0.192 0.767 0.767
5.775 500 0.193 0.770 500 0.193 0.193 0.770 0.770
5.800 500 0.193 0.773 500 0.193 0.193 0.773 0.773
5.825 500 0.194 0.777 500 0.194 0.194 0.777 0.777
5.850 500 0.195 0.780 500 0.195 0.195 0.780 0.780
5.875 500 0.196 0.783 500 0.196 0.196 0.783 0.783
5.900 500 0.197 0.787 500 0.197 0.197 0.787 0.787
5.925 500 0.198 0.790 500 0.198 0.198 0.790 0.790
5.950 500 0.198 0.793 500 0.198 0.198 0.793 0.793
5.975 500 0.199 0.797 500 0.199 0.199 0.797 0.797
6.000 600 0.200 0.667 600 0.200 0.200 0.667 0.667
6.025 600 0.201 0.669 600 0.201 0.201 0.669 0.669
6.050 600 0.202 0.672 600 0.202 0.202 0.672 0.672
6.075 600 0.203 0.675 600 0.203 0.203 0.675 0.675
6.100 600 0.203 0.678 600 0.203 0.203 0.678 0.678
6.125 600 0.204 0.681 600 0.204 0.204 0.681 0.681
6.150 600 0.205 0.683 600 0.205 0.205 0.683 0.683
6.175 600 0.206 0.686 600 0.206 0.206 0.686 0.686
6.200 600 0.207 0.689 600 0.207 0.207 0.689 0.689
6.225 600 0.207 0.692 600 0.207 0.207 0.692 0.692
6.250 600 0.208 0.694 600 0.208 0.208 0.694 0.694
6.275 600 0.209 0.697 600 0.209 0.209 0.697 0.697
6.300 600 0.210 0.700 600 0.210 0.210 0.700 0.700
6.325 600 0.211 0.703 600 0.211 0.211 0.703 0.703
6.350 600 0.212 0.706 600 0.212 0.212 0.706 0.706
6.375 600 0.212 0.708 600 0.212 0.212 0.708 0.708
6.400 600 0.213 0.711 600 0.213 0.213 0.711 0.711
6.425 600 0.214 0.714 600 0.214 0.214 0.714 0.714
6.450 600 0.215 0.717 600 0.215 0.215 0.717 0.717
6.475 600 0.216 0.719 600 0.216 0.216 0.719 0.719
6.500 600 0.217 0.722 600 0.217 0.217 0.722 0.722
6.525 600 0.217 0.725 600 0.217 0.217 0.725 0.725
6.550 600 0.218 0.728 600 0.218 0.218 0.728 0.728
6.575 600 0.219 0.731 600 0.219 0.219 0.731 0.731
6.600 600 0.220 0.733 600 0.220 0.220 0.733 0.733
6.625 600 0.221 0.736 600 0.221 0.221 0.736 0.736
6.650 600 0.222 0.739 600 0.222 0.222 0.739 0.739
6.675 600 0.223 0.742 600 0.223 0.223 0.742 0.742
6.700 600 0.223 0.744 600 0.223 0.223 0.744 0.744
6.725 600 0.224 0.747 600 0.224 0.224 0.747 0.747
6.750 600 0.225 0.750 600 0.225 0.225 0.750 0.750
6.775 600 0.226 0.753 600 0.226 0.226 0.753 0.753
6.800 600 0.227 0.756 600 0.227 0.227 0.756 0.756
6.825 600 0.228 0.758 600 0.228 0.228 0.758 0.758
6.850 600 0.228 0.761 600 0.228 0.228 0.761 0.761
6.875 600 0.229 0.764 600 0.229 0.229 0.764 0.764
6.900 600 0.230 0.767 600 0.230 0.230 0.767 0.767
6.925 600 0.231 0.769 600 0.231 0.231 0.769 0.769
6.950 600 0.232 0.772 600 0.232 0.232 0.772 0.772
6.975 600 0.233 0.775 600 0.233 0.233 0.775 0.775
7.000 600 0.233 0.778 600 0.233 0.233 0.778 0.778
7.025 600 0.234 0.781 600 0.234 0.234 0.781 0.781
7.050 600 0.235 0.783 600 0.235 0.235 0.783 0.783
7.075 600 0.236 0.786 600 0.236 0.236 0.786 0.786
7.100 600 0.237 0.789 600 0.237 0.237 0.789 0.789
7.125 600 0.237 0.792 600 0.237 0.237 0.792 0.792
7.150 600 0.238 0.794 600 0.238 0.238 0.794 0.794
7.175 600 0.239 0.797 600 0.239 0.239 0.797 0.797
7.200 600 0.240 0.800 600 0.240 0.240 0.800 0.800
7.225 600 0.241 0.803 600 0.241 0.241 0.803 0.803
7.250 600 0.242 0.806 600 0.242 0.242 0.806 0.806
7.275 600 0.242 0.808 600 0.242 0.242 0.808 0.808
7.300 600 0.243 0.811 600 0.243 0.243 0.811 0.811
7.325 600 0.244 0.814 600 0.244 0.244 0.814 0.814
7.350 600 0.245 0.817 600 0.245 0.245 0.817 0.817
7.375 600 0.246 0.819 600 0.246 0.246 0.819 0.819
7.400 600 0.247 0.822 600 0.247 0.247 0.822 0.822
7.425 600 0.247 0.825 600 0.247 0.247 0.825 0.825
7.450 600 0.248 0.828 600 0.248 0.248 0.828 0.828
7.475 600 0.249 0.831 600 0.249 0.249 0.831 0.831
7.500 600 0.250 0.833 600 0.250 0.250 0.833 0.833
7.525 600 0.251 0.836 600 0.251 0.251 0.836 0.836
7.550 700 0.252 0.719 700 0.252 0.252 0.719 0.719
7.575 700 0.253 0.721 700 0.253 0.253 0.721 0.721
7.600 700 0.253 0.724 700 0.253 0.253 0.724 0.724
7.625 700 0.254 0.726 700 0.254 0.254 0.726 0.726
7.650 700 0.255 0.729 700 0.255 0.255 0.729 0.729
7.675 700 0.256 0.731 700 0.256 0.256 0.731 0.731
7.700 700 0.257 0.733 700 0.257 0.257 0.733 0.733
7.725 700 0.258 0.736 700 0.258 0.258 0.736 0.736
7.750 700 0.258 0.738 700 0.258 0.258 0.738 0.738
7.775 700 0.259 0.740 700 0.259 0.259 0.740 0.740
7.800 700 0.260 0.743 700 0.260 0.260 0.743 0.743
7.825 700 0.261 0.745 700 0.261 0.261 0.745 0.745
7.850 700 0.262 0.748 700 0.262 0.262 0.748 0.748
7.875 700 0.263 0.750 700 0.263 0.263 0.750 0.750
7.900 700 0.263 0.752 700 0.263 0.263 0.752 0.752
7.925 700 0.264 0.755 700 0.264 0.264 0.755 0.755
7.950 700 0.265 0.757 700 0.265 0.265 0.757 0.757
7.975 700 0.266 0.760 700 0.266 0.266 0.760 0.760
8.000 700 0.267 0.762 700 0.267 0.267 0.762 0.762
8.025 700 0.268 0.764 700 0.268 0.268 0.764 0.764
8.050 700 0.268 0.767 700 0.268 0.268 0.767 0.767
8.075 700 0.269 0.769 700 0.269 0.269 0.769 0.769
8.100 700 0.270 0.771 700 0.270 0.270 0.771 0.771
8.125 700 0.271 0.774 700 0.271 0.271 0.774 0.774
8.150 700 0.272 0.776 700 0.272 0.272 0.776 0.776
8.175 700 0.273 0.779 700 0.273 0.273 0.779 0.779
8.200 700 0.273 0.781 700 0.273 0.273 0.781 0.781
8.225 700 0.274 0.783 700 0.274 0.274 0.783 0.783
8.250 700 0.275 0.786 700 0.275 0.275 0.786 0.786
8.275 700 0.276 0.788 700 0.276 0.276 0.788 0.788
8.300 700 0.277 0.790 700 0.277 0.277 0.790 0.790
8.325 700 0.278 0.793 700 0.278 0.278 0.793 0.793
8.350 700 0.278 0.795 700 0.278 0.278 0.795 0.795
8.375 700 0.279 0.798 700 0.279 0.279 0.798 0.798
8.400 700 0.280 0.800 700 0.280 0.280 0.800 0.800
8.425 700 0.281 0.802 700 0.281 0.281 0.802 0.802
8.450 700 0.282 0.805 700 0.282 0.282 0.805 0.805
8.475 700 0.282 0.807 700 0.282 0.282 0.807 0.807
8.500 700 0.283 0.810 700 0.283 0.283 0.810 0.810
8.525 700 0.284 0.812 700 0.284 0.284 0.812 0.812
8.550 700 0.285 0.814 700 0.285 0.285 0.814 0.814
8.575 700 0.286 0.817 700 0.286 0.286 0.817 0.817
8.600 800 0.287 0.717 800 0.287 0.287 0.717 0.717
8.625 800 0.287 0.719 800 0.287 0.287 0.719 0.719
8.650 800 0.288 0.721 800 0.288 0.288 0.721 0.721
8.675 800 0.289 0.723 800 0.289 0.289 0.723 0.723
8.700 800 0.290 0.725 800 0.290 0.290 0.725 0.725
8.725 800 0.291 0.727 800 0.291 0.291 0.727 0.727
8.750 800 0.292 0.729 800 0.292 0.292 0.729 0.729
8.775 800 0.292 0.731 800 0.292 0.292 0.731 0.731
8.800 800 0.293 0.733 800 0.293 0.293 0.733 0.733
8.825 800 0.294 0.735 800 0.294 0.294 0.735 0.735
8.850 800 0.295 0.738 800 0.295 0.295 0.738 0.738
8.875 800 0.296 0.740 800 0.296 0.296 0.740 0.740
8.900 800 0.297 0.742 800 0.297 0.297 0.742 0.742
8.925 800 0.297 0.744 800 0.297 0.297 0.744 0.744
8.950 800 0.298 0.746 800 0.298 0.298 0.746 0.746
8.975 800 0.299 0.748 800 0.299 0.299 0.748 0.748
9.000 800 0.300 0.750 800 0.300 0.300 0.750 0.750
9.025 800 0.301 0.752 800 0.301 0.301 0.752 0.752
9.050 800 0.302 0.754 800 0.302 0.302 0.754 0.754
9.075 800 0.302 0.756 800 0.302 0.302 0.756 0.756
9.100 800 0.303 0.758 800 0.303 0.303 0.758 0.758
9.125 800 0.304 0.760 800 0.304 0.304 0.760 0.760
9.150 800 0.305 0.762 800 0.305 0.305 0.762 0.762
9.175 800 0.306 0.765 800 0.306 0.306 0.765 0.765
9.200 800 0.307 0.767 800 0.307 0.307 0.767 0.767
9.225 800 0.307 0.769 800 0.307 0.307 0.769 0.769
9.250 800 0.308 0.771 800 0.308 0.308 0.771 0.771
9.275 800 0.309 0.773 800 0.309 0.309 0.773 0.773
9.300 800 0.310 0.775 800 0.310 0.310 0.775 0.775
9.325 800 0.311 0.777 800 0.311 0.311 0.777 0.777
9.350 800 0.312 0.779 800 0.312 0.312 0.779 0.779
9.375 800 0.312 0.781 800 0.312 0.312 0.781 0.781
9.400 800 0.313 0.783 800 0.313 0.313 0.783 0.783
9.425 800 0.314 0.785 800 0.314 0.314 0.785 0.785
9.450 800 0.315 0.787 800 0.315 0.315 0.787 0.787
9.475 800 0.316 0.790 800 0.316 0.316 0.790 0.790
9.500 800 0.317 0.792 800 0.317 0.317 0.792 0.792
9.525 800 0.318 0.794 800 0.318 0.318 0.794 0.794
9.550 800 0.318 0.796 800 0.318 0.318 0.796 0.796
9.575 800 0.319 0.798 800 0.319 0.319 0.798 0.798
9.600 800 0.320 0.800 800 0.320 0.320 0.800 0.800
9.625 800 0.321 0.802 800 0.321 0.321 0.802 0.802
9.650 800 0.322 0.804 800 0.322 0.322 0.804 0.804
9.675 800 0.323 0.806 800 0.323 0.323 0.806 0.806
9.700 800 0.323 0.808 800 0.323 0.323 0.808 0.808
9.725 800 0.324 0.810 800 0.324 0.324 0.810 0.810
9.750 800 0.325 0.812 800 0.325 0.325 0.812 0.812
9.775 800 0.326 0.815 800 0.326 0.326 0.815 0.815
9.800 800 0.327 0.817 800 0.327 0.327 0.817 0.817
9.825 800 0.328 0.819 800 0.328 0.328 0.819 0.819
9.850 800 0.328 0.821 800 0.328 0.328 0.821 0.821
9.875 800 0.329 0.823 800 0.329 0.329 0.823 0.823
9.900 900 0.330 0.733 900 0.330 0.330 0.733 0.733
9.925 900 0.331 0.735 900 0.331 0.331 0.735 0.735
9.950 900 0.332 0.737 900 0.332 0.332 0.737 0.737
9.975 900 0.333 0.739 900 0.333 0.333 0.739 0.739
10.000 900 0.333 0.741 900 0.333 0.333 0.741 0.741
10.025 900 0.334 0.743 900 0.334 0.334 0.743 0.743
10.050 900 0.335 0.744 900 0.335 0.335 0.744 0.744
10.075 900 0.336 0.746 900 0.336 0.336 0.746 0.746
10.100 900 0.337 0.748 900 0.337 0.337 0.748 0.748
10.125 900 0.338 0.750 900 0.338 0.338 0.750 0.750
10.150 900 0.338 0.752 900 0.338 0.338 0.752 0.752
10.175 900 0.339 0.754 900 0.339 0.339 0.754 0.754
10.200 900 0.340 0.756 900 0.340 0.340 0.756 0.756
10.225 900 0.341 0.757 900 0.341 0.341 0.757 0.757
10.250 900 0.342 0.759 900 0.342 0.342 0.759 0.759
10.275 900 0.343 0.761 900 0.343 0.343 0.761 0.761
10.300 900 0.343 0.763 900 0.343 0.343 0.763 0.763
10.325 900 0.344 0.765 900 0.344 0.344 0.765 0.765
10.350 900 0.345 0.767 900 0.345 0.345 0.767 0.767
10.375 900 0.346 0.769 900 0.346 0.346 0.769 0.769
10.400 900 0.347 0.770 900 0.347 0.347 0.770 0.770
10.425 900 0.347 0.772 900 0.347 0.347 0.772 0.772
10.450 900 0.348 0.774 900 0.348 0.348 0.774 0.774
10.475 900 0.349 0.776 900 0.349 0.349 0.776 0.776
10.500 900 0.350 0.778 900 0.350 0.350 0.778 0.778
10.525 900 0.351 0.780 900 0.351 0.351 0.780 0.780
10.550 900 0.352 0.781 900 0.352 0.352 0.781 0.781
10.575 900 0.352 0.783 900 0.352 0.352 0.783 0.783
10.600 900 0.353 0.785 900 0.353 0.353 0.785 0.785
10.625 900 0.354 0.787 900 0.354 0.354 0.787 0.787
10.650 900 0.355 0.789 900 0.355 0.355 0.789 0.789
10.675 900 0.356 0.791 900 0.356 0.356 0.791 0.791
10.700 900 0.357 0.793 900 0.357 0.357 0.793 0.793
10.725 900 0.357 0.794 900 0.357 0.357 0.794 0.794
10.750 900 0.358 0.796 900 0.358 0.358 0.796 0.796
10.775 900 0.359 0.798 900 0.359 0.359 0.798 0.798
10.800 900 0.360 0.800 900 0.360 0.360 0.800 0.800
10.825 900 0.361 0.802 900 0.361 0.361 0.802 0.802
10.850 900 0.362 0.804 900 0.362 0.362 0.804 0.804
10.875 900 0.362 0.806 900 0.362 0.362 0.806 0.806
10.900 900 0.363 0.807 900 0.363 0.363 0.807 0.807
10.925 900 0.364 0.809 900 0.364 0.364 0.809 0.809
10.950 1000 0.365 0.730 1000 0.365 0.365 0.730 0.730
10.975 1000 0.366 0.732 1000 0.366 0.366 0.732 0.732
11.000 1000 0.367 0.733 1000 0.367 0.367 0.733 0.733
11.025 1000 0.367 0.735 1000 0.367 0.367 0.735 0.735
11.050 1000 0.368 0.737 1000 0.368 0.368 0.737 0.737
11.075 1000 0.369 0.738 1000 0.369 0.369 0.738 0.738
11.100 1000 0.370 0.740 1000 0.370 0.370 0.740 0.740
11.125 1000 0.371 0.742 1000 0.371 0.371 0.742 0.742
11.150 1000 0.372 0.743 1000 0.372 0.372 0.743 0.743
11.175 1000 0.372 0.745 1000 0.372 0.372 0.745 0.745
11.200 1000 0.373 0.747 1000 0.373 0.373 0.747 0.747
11.225 1000 0.374 0.748 1000 0.374 0.374 0.748 0.748
11.250 1000 0.375 0.750 1000 0.375 0.375 0.750 0.750
11.275 1000 0.376 0.752 1000 0.376 0.376 0.752 0.752
11.300 1000 0.377 0.753 1000 0.377 0.377 0.753 0.753
11.325 1000 0.378 0.755 1000 0.378 0.378 0.755 0.755
11.350 1000 0.378 0.757 1000 0.378 0.378 0.757 0.757
11.375 1000 0.379 0.758 1000 0.379 0.379 0.758 0.758
11.400 1000 0.380 0.760 1000 0.380 0.380 0.760 0.760
11.425 1000 0.381 0.762 1000 0.381 0.381 0.762 0.762
11.450 1000 0.382 0.763 1000 0.382 0.382 0.763 0.763
11.475 1000 0.383 0.765 1000 0.383 0.383 0.765 0.765
11.500 1000 0.383 0.767 1000 0.383 0.383 0.767 0.767
11.525 1000 0.384 0.768 1000 0.384 0.384 0.768 0.768
11.550 1000 0.385 0.770 1000 0.385 0.385 0.770 0.770
11.575 1000 0.386 0.772 1000 0.386 0.386 0.772 0.772
11.600 1000 0.387 0.773 1000 0.387 0.387 0.773 0.773
11.625 1000 0.388 0.775 1000 0.388 0.388 0.775 0.775
11.650 1000 0.388 0.777 1000 0.388 0.388 0.777 0.777
11.675 1000 0.389 0.778 1000 0.389 0.389 0.778 0.778
11.700 1000 0.390 0.780 1000 0.390 0.390 0.780 0.780
11.725 1000 0.391 0.782 1000 0.391 0.391 0.782 0.782
11.750 1000 0.392 0.783 1000 0.392 0.392 0.783 0.783
11.775 1000 0.393 0.785 1000 0.393 0.393 0.785 0.785
11.800 1000 0.393 0.787 1000 0.393 0.393 0.787 0.787
11.825 1000 0.394 0.788 1000 0.394 0.394 0.788 0.788
11.850 1000 0.395 0.790 1000 0.395 0.395 0.790 0.790
11.875 1000 0.396 0.792 1000 0.396 0.396 0.792 0.792
11.900 1000 0.397 0.793 1000 0.397 0.397 0.793 0.793
11.925 1000 0.398 0.795 1000 0.398 0.398 0.795 0.795
11.950 1000 0.398 0.797 1000 0.398 0.398 0.797 0.797
11.975 1100 0.399 0.726 1100 0.399 0.399 0.726 0.726
12.000 1100 0.400 0.727 1100 0.400 0.400 0.727 0.727
12.025 1100 0.401 0.729 1100 0.401 0.401 0.729 0.729
12.050 1100 0.402 0.730 1100 0.402 0.402 0.730 0.730
12.075 1100 0.403 0.732 1100 0.403 0.403 0.732 0.732
12.100 1100 0.403 0.733 1100 0.403 0.403 0.733 0.733
12.125 1100 0.404 0.735 1100 0.404 0.404 0.735 0.735
12.150 1100 0.405 0.736 1100 0.405 0.405 0.736 0.736
12.175 1100 0.406 0.738 1100 0.406 0.406 0.738 0.738
12.200 1100 0.407 0.739 1100 0.407 0.407 0.739 0.739
12.225 1100 0.407 0.741 1100 0.407 0.407 0.741 0.741
12.250 1100 0.408 0.742 1100 0.408 0.408 0.742 0.742
12.275 1100 0.409 0.744 1100 0.409 0.409 0.744 0.744
12.300 1100 0.410 0.745 1100 0.410 0.410 0.745 0.745
12.325 1100 0.411 0.747 1100 0.411 0.411 0.747 0.747
12.350 1100 0.412 0.748 1100 0.412 0.412 0.748 0.748
12.375 1100 0.412 0.750 1100 0.412 0.412 0.750 0.750
12.400 1100 0.413 0.752 1100 0.413 0.413 0.752 0.752
12.425 1100 0.414 0.753 1100 0.414 0.414 0.753 0.753
12.450 1100 0.415 0.755 1100 0.415 0.415 0.755 0.755
12.475 1100 0.416 0.756 1100 0.416 0.416 0.756 0.756
12.500 1100 0.417 0.758 1100 0.417 0.417 0.758 0.758
12.525 1100 0.417 0.759 1100 0.417 0.417 0.759 0.759
12.550 1100 0.418 0.761 1100 0.418 0.418 0.761 0.761
12.575 1100 0.419 0.762 1100 0.419 0.419 0.762 0.762
12.600 1100 0.420 0.764 1100 0.420 0.420 0.764 0.764
12.625 1100 0.421 0.765 1100 0.421 0.421 0.765 0.765
12.650 1100 0.422 0.767 1100 0.422 0.422 0.767 0.767
12.675 1100 0.422 0.768 1100 0.422 0.422 0.768 0.768
12.700 1100 0.423 0.770 1100 0.423 0.423 0.770 0.770
12.725 1100 0.424 0.771 1100 0.424 0.424 0.771 0.771
12.750 1100 0.425 0.773 1100 0.425 0.425 0.773 0.773
12.775 1100 0.426 0.774 1100 0.426 0.426 0.774 0.774
12.800 1100 0.427 0.776 1100 0.427 0.427 0.776 0.776
12.825 1100 0.427 0.777 1100 0.427 0.427 0.777 0.777
12.850 1100 0.428 0.779 1100 0.428 0.428 0.779 0.779
12.875 1100 0.429 0.780 1100 0.429 0.429 0.780 0.780
12.900 1100 0.430 0.782 1100 0.430 0.430 0.782 0.782
12.925 1100 0.431 0.783 1100 0.431 0.431 0.783 0.783
12.950 1100 0.432 0.785 1100 0.432 0.432 0.785 0.785
12.975 1100 0.432 0.786 1100 0.432 0.432 0.786 0.786
13.000 1200 0.433 0.722 1200 0.433 0.433 0.722 0.722
13.025 1200 0.434 0.724 1200 0.434 0.434 0.724 0.724
13.050 1200 0.435 0.725 1200 0.435 0.435 0.725 0.725
13.075 1200 0.436 0.726 1200 0.436 0.436 0.726 0.726
13.100 1200 0.437 0.728 1200 0.437 0.437 0.728 0.728
13.125 1200 0.438 0.729 1200 0.438 0.438 0.729 0.729
13.150 1200 0.438 0.731 1200 0.438 0.438 0.731 0.731
13.175 1200 0.439 0.732 1200 0.439 0.439 0.732 0.732
13.200 1200 0.440 0.733 1200 0.440 0.440 0.733 0.733
13.225 1200 0.441 0.735 1200 0.441 0.441 0.735 0.735
13.250 1200 0.442 0.736 1200 0.442 0.442 0.736 0.736
13.275 1200 0.443 0.738 1200 0.443 0.443 0.738 0.738
13.300 1200 0.443 0.739 1200 0.443 0.443 0.739 0.739
13.325 1200 0.444 0.740 1200 0.444 0.444 0.740 0.740
13.350 1200 0.445 0.742 1200 0.445 0.445 0.742 0.742
13.375 1200 0.446 0.743 1200 0.446 0.446 0.743 0.743
13.400 1200 0.447 0.744 1200 0.447 0.447 0.744 0.744
13.425 1200 0.448 0.746 1200 0.448 0.448 0.746 0.746
13.450 1200 0.448 0.747 1200 0.448 0.448 0.747 0.747
13.475 1200 0.449 0.749 1200 0.449 0.449 0.749 0.749
13.500 1200 0.450 0.750 1200 0.450 0.450 0.750 0.750
13.525 1200 0.451 0.751 1200 0.451 0.451 0.751 0.751
13.550 1200 0.452 0.753 1200 0.452 0.452 0.753 0.753
13.575 1200 0.453 0.754 1200 0.453 0.453 0.754 0.754
13.600 1200 0.453 0.756 1200 0.453 0.453 0.756 0.756
13.625 1200 0.454 0.757 1200 0.454 0.454 0.757 0.757
13.650 1200 0.455 0.758 1200 0.455 0.455 0.758 0.758
13.675 1200 0.456 0.760 1200 0.456 0.456 0.760 0.760
13.700 1200 0.457 0.761 1200 0.457 0.457 0.761 0.761
13.725 1200 0.458 0.762 1200 0.458 0.458 0.762 0.762
13.750 1200 0.458 0.764 1200 0.458 0.458 0.764 0.764
13.775 1200 0.459 0.765 1200 0.459 0.459 0.765 0.765
13.800 1200 0.460 0.767 1200 0.460 0.460 0.767 0.767
13.825 1200 0.461 0.768 1200 0.461 0.461 0.768 0.768
13.850 1200 0.462 0.769 1200 0.462 0.462 0.769 0.769
13.875 1200 0.463 0.771 1200 0.463 0.463 0.771 0.771
13.900 1200 0.463 0.772 1200 0.463 0.463 0.772 0.772
13.925 1200 0.464 0.774 1200 0.464 0.464 0.774 0.774
13.950 1200 0.465 0.775 1200 0.465 0.465 0.775 0.775
13.975 1200 0.466 0.776 1200 0.466 0.466 0.776 0.776
14.000 1200 0.467 0.778 1200 0.467 0.467 0.778 0.778
14.025 1200 0.468 0.779 1200 0.468 0.468 0.779 0.779
14.050 1200 0.468 0.781 1200 0.468 0.468 0.781 0.781
14.075 1200 0.469 0.782 1200 0.469 0.469 0.782 0.782
14.100 1200 0.470 0.783 1200 0.470 0.470 0.783 0.783
14.125 1200 0.471 0.785 1200 0.471 0.471 0.785 0.785
14.150 1200 0.472 0.786 1200 0.472 0.472 0.786 0.786
14.175 1200 0.472 0.787 1200 0.472 0.472 0.787 0.787
14.200 1200 0.473 0.789 1200 0.473 0.473 0.789 0.789
14.225 1200 0.474 0.790 1200 0.474 0.474 0.790 0.790
14.250 1200 0.475 0.792 1200 0.475 0.475 0.792 0.792
14.275 1200 0.476 0.793 1200 0.476 0.476 0.793 0.793
14.300 1300 0.477 0.733 1300 0.477 0.477 0.733 0.733
14.325 1300 0.477 0.735 1300 0.477 0.477 0.735 0.735
14.350 1300 0.478 0.736 1300 0.478 0.478 0.736 0.736
14.375 1300 0.479 0.737 1300 0.479 0.479 0.737 0.737
14.400 1300 0.480 0.738 1300 0.480 0.480 0.738 0.738
14.425 1300 0.481 0.740 1300 0.481 0.481 0.740 0.740
14.450 1300 0.482 0.741 1300 0.482 0.482 0.741 0.741
14.475 1300 0.482 0.742 1300 0.482 0.482 0.742 0.742
14.500 1300 0.483 0.744 1300 0.483 0.483 0.744 0.744
14.525 1300 0.484 0.745 1300 0.484 0.484 0.745 0.745
14.550 1300 0.485 0.746 1300 0.485 0.485 0.746 0.746
14.575 1300 0.486 0.747 1300 0.486 0.486 0.747 0.747
14.600 1300 0.487 0.749 1300 0.487 0.487 0.749 0.749
14.625 1300 0.487 0.750 1300 0.487 0.487 0.750 0.750
14.650 1300 0.488 0.751 1300 0.488 0.488 0.751 0.751
14.675 1300 0.489 0.753 1300 0.489 0.489 0.753 0.753
14.700 1300 0.490 0.754 1300 0.490 0.490 0.754 0.754
14.725 1300 0.491 0.755 1300 0.491 0.491 0.755 0.755
14.750 1300 0.492 0.756 1300 0.492 0.492 0.756 0.756
14.775 1300 0.492 0.758 1300 0.492 0.492 0.758 0.758
14.800 1300 0.493 0.759 1300 0.493 0.493 0.759 0.759
14.825 1300 0.494 0.760 1300 0.494 0.494 0.760 0.760
14.850 1300 0.495 0.762 1300 0.495 0.495 0.762 0.762
14.875 1300 0.496 0.763 1300 0.496 0.496 0.763 0.763
14.900 1300 0.497 0.764 1300 0.497 0.497 0.764 0.764
14.925 1300 0.497 0.765 1300 0.497 0.497 0.765 0.765
14.950 1300 0.498 0.767 1300 0.498 0.498 0.767 0.767
14.975 1300 0.499 0.768 1300 0.499 0.499 0.768 0.768
15.000 1300 0.500 0.769 1300 0.500 0.500 0.769 0.769
15.025 1300 0.501 0.771 1300 0.501 0.501 0.771 0.771
15.050 1300 0.502 0.772 1300 0.502 0.502 0.772 0.772
15.075 1300 0.502 0.773 1300 0.502 0.502 0.773 0.773
15.100 1300 0.503 0.774 1300 0.503 0.503 0.774 0.774
15.125 1300 0.504 0.776 1300 0.504 0.504 0.776 0.776
15.150 1300 0.505 0.777 1300 0.505 0.505 0.777 0.777
15.175 1300 0.506 0.778 1300 0.506 0.506 0.778 0.778
15.200 1300 0.507 0.779 1300 0.507 0.507 0.779 0.779
15.225 1300 0.507 0.781 1300 0.507 0.507 0.781 0.781
15.250 1300 0.508 0.782 1300 0.508 0.508 0.782 0.782
15.275 1300 0.509 0.783 1300 0.509 0.509 0.783 0.783
15.300 1300 0.510 0.785 1300 0.510 0.510 0.785 0.785
15.325 1300 0.511 0.786 1300 0.511 0.511 0.786 0.786
15.350 1400 0.512 0.731 1400 0.512 0.512 0.731 0.731
15.375 1400 0.512 0.732 1400 0.512 0.512 0.732 0.732
15.400 1400 0.513 0.733 1400 0.513 0.513 0.733 0.733
15.425 1400 0.514 0.735 1400 0.514 0.514 0.735 0.735
15.450 1400 0.515 0.736 1400 0.515 0.515 0.736 0.736
15.475 1400 0.516 0.737 1400 0.516 0.516 0.737 0.737
15.500 1400 0.517 0.738 1400 0.517 0.517 0.738 0.738
15.525 1400 0.517 0.739 1400 0.517 0.517 0.739 0.739
15.550 1400 0.518 0.740 1400 0.518 0.518 0.740 0.740
15.575 1400 0.519 0.742 1400 0.519 0.519 0.742 0.742
15.600 1400 0.520 0.743 1400 0.520 0.520 0.743 0.743
15.625 1400 0.521 0.744 1400 0.521 0.521 0.744 0.744
15.650 1400 0.522 0.745 1400 0.522 0.522 0.745 0.745
15.675 1400 0.522 0.746 1400 0.522 0.522 0.746 0.746
15.700 1400 0.523 0.748 1400 0.523 0.523 0.748 0.748
15.725 1400 0.524 0.749 1400 0.524 0.524 0.749 0.749
15.750 1400 0.525 0.750 1400 0.525 0.525 0.750 0.750
15.775 1400 0.526 0.751 1400 0.526 0.526 0.751 0.751
15.800 1400 0.527 0.752 1400 0.527 0.527 0.752 0.752
15.825 1400 0.527 0.754 1400 0.527 0.527 0.754 0.754
15.850 1400 0.528 0.755 1400 0.528 0.528 0.755 0.755
15.875 1400 0.529 0.756 1400 0.529 0.529 0.756 0.756
15.900 1400 0.530 0.757 1400 0.530 0.530 0.757 0.757
15.925 1400 0.531 0.758 1400 0.531 0.531 0.758 0.758
15.950 1400 0.532 0.760 1400 0.532 0.532 0.760 0.760
15.975 1400 0.532 0.761 1400 0.532 0.532 0.761 0.761
16.000 1400 0.533 0.762 1400 0.533 0.533 0.762 0.762
16.025 1400 0.534 0.763 1400 0.534 0.534 0.763 0.763
16.050 1400 0.535 0.764 1400 0.535 0.535 0.764 0.764
16.075 1400 0.536 0.765 1400 0.536 0.536 0.765 0.765
16.100 1400 0.537 0.767 1400 0.537 0.537 0.767 0.767
16.125 1400 0.537 0.768 1400 0.537 0.537 0.768 0.768
16.150 1400 0.538 0.769 1400 0.538 0.538 0.769 0.769
16.175 1400 0.539 0.770 1400 0.539 0.539 0.770 0.770
16.200 1400 0.540 0.771 1400 0.540 0.540 0.771 0.771
16.225 1400 0.541 0.773 1400 0.541 0.541 0.773 0.773
16.250 1400 0.542 0.774 1400 0.542 0.542 0.774 0.774
16.275 1400 0.542 0.775 1400 0.542 0.542 0.775 0.775
16.300 1400 0.543 0.776 1400 0.543 0.543 0.776 0.776
16.325 1400 0.544 0.777 1400 0.544 0.544 0.777 0.777
16.350 1400 0.545 0.779 1400 0.545 0.545 0.779 0.779
16.375 1400 0.546 0.780 1400 0.546 0.546 0.780 0.780
16.400 1500 0.547 0.729 1500 0.547 0.547 0.729 0.729
16.425 1500 0.547 0.730 1500 0.547 0.547 0.730 0.730
16.450 1500 0.548 0.731 1500 0.548 0.548 0.731 0.731
16.475 1500 0.549 0.732 1500 0.549 0.549 0.732 0.732
16.500 1500 0.550 0.733 1500 0.550 0.550 0.733 0.733
16.525 1500 0.551 0.734 1500 0.551 0.551 0.734 0.734
16.550 1500 0.552 0.736 1500 0.552 0.552 0.736 0.736
16.575 1500 0.552 0.737 1500 0.552 0.552 0.737 0.737
16.600 1500 0.553 0.738 1500 0.553 0.553 0.738 0.738
16.625 1500 0.554 0.739 1500 0.554 0.554 0.739 0.739
16.650 1500 0.555 0.740 1500 0.555 0.555 0.740 0.740
16.675 1500 0.556 0.741 1500 0.556 0.556 0.741 0.741
16.700 1500 0.557 0.742 1500 0.557 0.557 0.742 0.742
16.725 1500 0.557 0.743 1500 0.557 0.557 0.743 0.743
16.750 1500 0.558 0.744 1500 0.558 0.558 0.744 0.744
16.775 1500 0.559 0.746 1500 0.559 0.559 0.746 0.746
16.800 1500 0.560 0.747 1500 0.560 0.560 0.747 0.747
16.825 1500 0.561 0.748 1500 0.561 0.561 0.748 0.748
16.850 1500 0.562 0.749 1500 0.562 0.562 0.749 0.749
16.875 1500 0.562 0.750 1500 0.562 0.562 0.750 0.750
16.900 1500 0.563 0.751 1500 0.563 0.563 0.751 0.751
16.925 1500 0.564 0.752 1500 0.564 0.564 0.752 0.752
16.950 1500 0.565 0.753 1500 0.565 0.565 0.753 0.753
16.975 1500 0.566 0.754 1500 0.566 0.566 0.754 0.754
17.000 1500 0.567 0.756 1500 0.567 0.567 0.756 0.756
17.025 1500 0.568 0.757 1500 0.568 0.568 0.757 0.757
17.050 1500 0.568 0.758 1500 0.568 0.568 0.758 0.758
17.075 1500 0.569 0.759 1500 0.569 0.569 0.759 0.759
17.100 1500 0.570 0.760 1500 0.570 0.570 0.760 0.760
17.125 1500 0.571 0.761 1500 0.571 0.571 0.761 0.761
17.150 1500 0.572 0.762 1500 0.572 0.572 0.762 0.762
17.175 1500 0.573 0.763 1500 0.573 0.573 0.763 0.763
17.200 1500 0.573 0.764 1500 0.573 0.573 0.764 0.764
17.225 1500 0.574 0.766 1500 0.574 0.574 0.766 0.766
17.250 1500 0.575 0.767 1500 0.575 0.575 0.767 0.767
17.275 1500 0.576 0.768 1500 0.576 0.576 0.768 0.768
17.300 1500 0.577 0.769 1500 0.577 0.577 0.769 0.769
17.325 1500 0.578 0.770 1500 0.578 0.578 0.770 0.770
17.350 1500 0.578 0.771 1500 0.578 0.578 0.771 0.771
17.375 1500 0.579 0.772 1500 0.579 0.579 0.772 0.772
17.400 1500 0.580 0.773 1500 0.580 0.580 0.773 0.773
17.425 1500 0.581 0.774 1500 0.581 0.581 0.774 0.774
17.450 1500 0.582 0.776 1500 0.582 0.582 0.776 0.776
17.475 1500 0.583 0.777 1500 0.583 0.583 0.777 0.777
17.500 1500 0.583 0.778 1500 0.583 0.583 0.778 0.778
17.525 1500 0.584 0.779 1500 0.584 0.584 0.779 0.779
17.550 1500 0.585 0.780 1500 0.585 0.585 0.780 0.780
17.575 1500 0.586 0.781 1500 0.586 0.586 0.781 0.781
17.600 1500 0.587 0.782 1500 0.587 0.587 0.782 0.782
17.625 1500 0.588 0.783 1500 0.588 0.588 0.783 0.783
17.650 1500 0.588 0.784 1500 0.588 0.588 0.784 0.784
17.675 1500 0.589 0.786 1500 0.589 0.589 0.786 0.786
17.700 1600 0.590 0.738 1600 0.590 0.590 0.738 0.738
17.725 1600 0.591 0.739 1600 0.591 0.591 0.739 0.739
17.750 1600 0.592 0.740 1600 0.592 0.592 0.740 0.740
17.775 1600 0.593 0.741 1600 0.593 0.593 0.741 0.741
17.800 1600 0.593 0.742 1600 0.593 0.593 0.742 0.742
17.825 1600 0.594 0.743 1600 0.594 0.594 0.743 0.743
17.850 1600 0.595 0.744 1600 0.595 0.595 0.744 0.744
17.875 1600 0.596 0.745 1600 0.596 0.596 0.745 0.745
17.900 1600 0.597 0.746 1600 0.597 0.597 0.746 0.746
17.925 1600 0.598 0.747 1600 0.598 0.598 0.747 0.747
17.950 1600 0.598 0.748 1600 0.598 0.598 0.748 0.748
17.975 1600 0.599 0.749 1600 0.599 0.599 0.749 0.749
18.000 1600 0.600 0.750 1600 0.600 0.600 0.750 0.750
18.025 1600 0.601 0.751 1600 0.601 0.601 0.751 0.751
18.050 1600 0.602 0.752 1600 0.602 0.602 0.752 0.752
18.075 1600 0.603 0.753 1600 0.603 0.603 0.753 0.753
18.100 1600 0.603 0.754 1600 0.603 0.603 0.754 0.754
18.125 1600 0.604 0.755 1600 0.604 0.604 0.755 0.755
18.150 1600 0.605 0.756 1600 0.605 0.605 0.756 0.756
18.175 1600 0.606 0.757 1600 0.606 0.606 0.757 0.757
18.200 1600 0.607 0.758 1600 0.607 0.607 0.758 0.758
18.225 1600 0.608 0.759 1600 0.608 0.608 0.759 0.759
18.250 1600 0.608 0.760 1600 0.608 0.608 0.760 0.760
18.275 1600 0.609 0.761 1600 0.609 0.609 0.761 0.761
18.300 1600 0.610 0.762 1600 0.610 0.610 0.762 0.762
18.325 1600 0.611 0.764 1600 0.611 0.611 0.764 0.764
18.350 1600 0.612 0.765 1600 0.612 0.612 0.765 0.765
18.375 1600 0.613 0.766 1600 0.613 0.613 0.766 0.766
18.400 1600 0.613 0.767 1600 0.613 0.613 0.767 0.767
18.425 1600 0.614 0.768 1600 0.614 0.614 0.768 0.768
18.450 1600 0.615 0.769 1600 0.615 0.615 0.769 0.769
18.475 1700 0.616 0.725 1700 0.616 0.616 0.725 0.725
18.500 1700 0.617 0.725 1700 0.617 0.617 0.725 0.725
18.525 1700 0.618 0.726 1700 0.618 0.618 0.726 0.726
18.550 1700 0.618 0.727 1700 0.618 0.618 0.727 0.727
18.575 1700 0.619 0.728 1700 0.619 0.619 0.728 0.728
18.600 1700 0.620 0.729 1700 0.620 0.620 0.729 0.729
18.625 1700 0.621 0.730 1700 0.621 0.621 0.730 0.730
18.650 1700 0.622 0.731 1700 0.622 0.622 0.731 0.731
18.675 1700 0.623 0.732 1700 0.623 0.623 0.732 0.732
18.700 1700 0.623 0.733 1700 0.623 0.623 0.733 0.733
18.725 1700 0.624 0.734 1700 0.624 0.624 0.734 0.734
18.750 1700 0.625 0.735 1700 0.625 0.625 0.735 0.735
18.775 1700 0.626 0.736 1700 0.626 0.626 0.736 0.736
18.800 1700 0.627 0.737 1700 0.627 0.627 0.737 0.737
18.825 1700 0.627 0.738 1700 0.627 0.627 0.738 0.738
18.850 1700 0.628 0.739 1700 0.628 0.628 0.739 0.739
18.875 1700 0.629 0.740 1700 0.629 0.629 0.740 0.740
18.900 1700 0.630 0.741 1700 0.630 0.630 0.741 0.741
18.925 1700 0.631 0.742 1700 0.631 0.631 0.742 0.742
18.950 1700 0.632 0.743 1700 0.632 0.632 0.743 0.743
18.975 1700 0.632 0.744 1700 0.632 0.632 0.744 0.744
19.000 1700 0.633 0.745 1700 0.633 0.633 0.745 0.745
19.025 1700 0.634 0.746 1700 0.634 0.634 0.746 0.746
19.050 1700 0.635 0.747 1700 0.635 0.635 0.747 0.747
19.075 1700 0.636 0.748 1700 0.636 0.636 0.748 0.748
19.100 1700 0.637 0.749 1700 0.637 0.637 0.749 0.749
19.125 1700 0.637 0.750 1700 0.637 0.637 0.750 0.750
19.150 1700 0.638 0.751 1700 0.638 0.638 0.751 0.751
19.175 1700 0.639 0.752 1700 0.639 0.639 0.752 0.752
19.200 1700 0.640 0.753 1700 0.640 0.640 0.753 0.753
19.225 1700 0.641 0.754 1700 0.641 0.641 0.754 0.754
19.250 1700 0.642 0.755 1700 0.642 0.642 0.755 0.755
19.275 1700 0.642 0.756 1700 0.642 0.642 0.756 0.756
19.300 1700 0.643 0.757 1700 0.643 0.643 0.757 0.757
19.325 1700 0.644 0.758 1700 0.644 0.644 0.758 0.758
19.350 1700 0.645 0.759 1700 0.645 0.645 0.759 0.759
19.375 1700 0.646 0.760 1700 0.646 0.646 0.760 0.760
19.400 1700 0.647 0.761 1700 0.647 0.647 0.761 0.761
19.425 1700 0.647 0.762 1700 0.647 0.647 0.762 0.762
19.450 1700 0.648 0.763 1700 0.648 0.648 0.763 0.763
19.475 1700 0.649 0.764 1700 0.649 0.649 0.764 0.764
19.500 1700 0.650 0.765 1700 0.650 0.650 0.765 0.765
19.525 1700 0.651 0.766 1700 0.651 0.651 0.766 0.766
19.550 1700 0.652 0.767 1700 0.652 0.652 0.767 0.767
19.575 1700 0.652 0.768 1700 0.652 0.652 0.768 0.768
19.600 1700 0.653 0.769 1700 0.653 0.653 0.769 0.769
19.625 1700 0.654 0.770 1700 0.654 0.654 0.770 0.770
19.650 1700 0.655 0.771 1700 0.655 0.655 0.771 0.771
19.675 1700 0.656 0.772 1700 0.656 0.656 0.772 0.772
19.700 1700 0.657 0.773 1700 0.657 0.657 0.773 0.773
19.725 1700 0.657 0.774 1700 0.657 0.657 0.774 0.774
19.750 1700 0.658 0.775 1700 0.658 0.658 0.775 0.775
19.775 1700 0.659 0.775 1700 0.659 0.659 0.775 0.775
19.800 1700 0.660 0.776 1700 0.660 0.660 0.776 0.776
19.825 1700 0.661 0.777 1700 0.661 0.661 0.777 0.777
19.850 1700 0.662 0.778 1700 0.662 0.662 0.778 0.778
19.875 1700 0.662 0.779 1700 0.662 0.662 0.779 0.779
19.900 1700 0.663 0.780 1700 0.663 0.663 0.780 0.780
19.925 1700 0.664 0.781 1700 0.664 0.664 0.781 0.781
19.950 1700 0.665 0.782 1700 0.665 0.665 0.782 0.782
19.975 1700 0.666 0.783 1700 0.666 0.666 0.783 0.783
20.000 1700 0.667 0.784 1700 0.667 0.667 0.784 0.784
20.025 1700 0.667 0.785 1700 0.667 0.667 0.785 0.785
20.050 1800 0.668 0.743 1800 0.668 0.668 0.743 0.743
20.075 1800 0.669 0.744 1800 0.669 0.669 0.744 0.744
20.100 1800 0.670 0.744 1800 0.670 0.670 0.744 0.744
20.125 1800 0.671 0.745 1800 0.671 0.671 0.745 0.745
20.150 1800 0.672 0.746 1800 0.672 0.672 0.746 0.746
20.175 1800 0.672 0.747 1800 0.672 0.672 0.747 0.747
20.200 1800 0.673 0.748 1800 0.673 0.673 0.748 0.748
20.225 1800 0.674 0.749 1800 0.674 0.674 0.749 0.749
20.250 1800 0.675 0.750 1800 0.675 0.675 0.750 0.750
20.275 1800 0.676 0.751 1800 0.676 0.676 0.751 0.751
20.300 1800 0.677 0.752 1800 0.677 0.677 0.752 0.752
20.325 1800 0.677 0.753 1800 0.677 0.677 0.753 0.753
20.350 1800 0.678 0.754 1800 0.678 0.678 0.754 0.754
20.375 1800 0.679 0.755 1800 0.679 0.679 0.755 0.755
20.400 1800 0.680 0.756 1800 0.680 0.680 0.756 0.756
20.425 1800 0.681 0.756 1800 0.681 0.681 0.756 0.756
20.450 1800 0.682 0.757 1800 0.682 0.682 0.757 0.757
20.475 1800 0.682 0.758 1800 0.682 0.682 0.758 0.758
20.500 1800 0.683 0.759 1800 0.683 0.683 0.759 0.759
20.525 1800 0.684 0.760 1800 0.684 0.684 0.760 0.760
20.550 1800 0.685 0.761 1800 0.685 0.685 0.761 0.761
20.575 1800 0.686 0.762 1800 0.686 0.686 0.762 0.762
20.600 1800 0.687 0.763 1800 0.687 0.687 0.763 0.763
20.625 1800 0.688 0.764 1800 0.688 0.688 0.764 0.764
20.650 1800 0.688 0.765 1800 0.688 0.688 0.765 0.765
20.675 1800 0.689 0.766 1800 0.689 0.689 0.766 0.766
20.700 1800 0.690 0.767 1800 0.690 0.690 0.767 0.767
20.725 1800 0.691 0.768 1800 0.691 0.691 0.768 0.768
20.750 1800 0.692 0.769 1800 0.692 0.692 0.769 0.769
20.775 1800 0.693 0.769 1800 0.693 0.693 0.769 0.769
20.800 1800 0.693 0.770 1800 0.693 0.693 0.770 0.770
20.825 1800 0.694 0.771 1800 0.694 0.694 0.771 0.771
20.850 1900 0.695 0.732 1900 0.695 0.695 0.732 0.732
20.875 1900 0.696 0.732 1900 0.696 0.696 0.732 0.732
20.900 1900 0.697 0.733 1900 0.697 0.697 0.733 0.733
20.925 1900 0.698 0.734 1900 0.698 0.698 0.734 0.734
20.950 1900 0.698 0.735 1900 0.698 0.698 0.735 0.735
20.975 1900 0.699 0.736 1900 0.699 0.699 0.736 0.736
21.000 1900 0.700 0.737 1900 0.700 0.700 0.737 0.737
21.025 1900 0.701 0.738 1900 0.701 0.701 0.738 0.738
21.050 1900 0.702 0.739 1900 0.702 0.702 0.739 0.739
21.075 1900 0.703 0.739 1900 0.703 0.703 0.739 0.739
21.100 1900 0.703 0.740 1900 0.703 0.703 0.740 0.740
21.125 1900 0.704 0.741 1900 0.704 0.704 0.741 0.741
21.150 1900 0.705 0.742 1900 0.705 0.705 0.742 0.742
21.175 1900 0.706 0.743 1900 0.706 0.706 0.743 0.743
21.200 1900 0.707 0.744 1900 0.707 0.707 0.744 0.744
21.225 1900 0.708 0.745 1900 0.708 0.708 0.745 0.745
21.250 1900 0.708 0.746 1900 0.708 0.708 0.746 0.746
21.275 1900 0.709 0.746 1900 0.709 0.709 0.746 0.746
21.300 1900 0.710 0.747 1900 0.710 0.710 0.747 0.747
21.325 1900 0.711 0.748 1900 0.711 0.711 0.748 0.748
21.350 1900 0.712 0.749 1900 0.712 0.712 0.749 0.749
21.375 1900 0.713 0.750 1900 0.713 0.713 0.750 0.750
21.400 1900 0.713 0.751 1900 0.713 0.713 0.751 0.751
21.425 1900 0.714 0.752 1900 0.714 0.714 0.752 0.752
21.450 1900 0.715 0.753 1900 0.715 0.715 0.753 0.753
21.475 1900 0.716 0.754 1900 0.716 0.716 0.754 0.754
21.500 1900 0.717 0.754 1900 0.717 0.717 0.754 0.754
21.525 1900 0.718 0.755 1900 0.718 0.718 0.755 0.755
21.550 1900 0.718 0.756 1900 0.718 0.718 0.756 0.756
21.575 1900 0.719 0.757 1900 0.719 0.719 0.757 0.757
21.600 1900 0.720 0.758 1900 0.720 0.720 0.758 0.758
21.625 1900 0.721 0.759 1900 0.721 0.721 0.759 0.759
21.650 1900 0.722 0.760 1900 0.722 0.722 0.760 0.760
21.675 1900 0.723 0.761 1900 0.723 0.723 0.761 0.761
21.700 1900 0.723 0.761 1900 0.723 0.723 0.761 0.761
21.725 1900 0.724 0.762 1900 0.724 0.724 0.762 0.762
21.750 1900 0.725 0.763 1900 0.725 0.725 0.763 0.763
21.775 1900 0.726 0.764 1900 0.726 0.726 0.764 0.764
21.800 1900 0.727 0.765 1900 0.727 0.727 0.765 0.765
21.825 1900 0.728 0.766 1900 0.728 0.728 0.766 0.766
21.850 1900 0.728 0.767 1900 0.728 0.728 0.767 0.767
21.875 1900 0.729 0.768 1900 0.729 0.729 0.768 0.768
21.900 1900 0.730 0.768 1900 0.730 0.730 0.768 0.768
21.925 1900 0.731 0.769 1900 0.731 0.731 0.769 0.769
21.950 1900 0.732 0.770 1900 0.732 0.732 0.770 0.770
21.975 1900 0.733 0.771 1900 0.733 0.733 0.771 0.771
22.000 1900 0.733 0.772 1900 0.733 0.733 0.772 0.772
22.025 1900 0.734 0.773 1900 0.734 0.734 0.773 0.773
22.050 1900 0.735 0.774 1900 0.735 0.735 0.774 0.774
22.075 1900 0.736 0.775 1900 0.736 0.736 0.775 0.775
22.100 1900 0.737 0.775 1900 0.737 0.737 0.775 0.775
22.125 1900 0.738 0.776 1900 0.738 0.738 0.776 0.776
22.150 2000 0.738 0.738 2000 0.738 0.738 0.738 0.738
22.175 2000 0.739 0.739 2000 0.739 0.739 0.739 0.739
22.200 2000 0.740 0.740 2000 0.740 0.740 0.740 0.740
22.225 2000 0.741 0.741 2000 0.741 0.741 0.741 0.741
22.250 2000 0.742 0.742 2000 0.742 0.742 0.742 0.742
22.275 2000 0.743 0.743 2000 0.743 0.743 0.743 0.743
22.300 2000 0.743 0.743 2000 0.743 0.743 0.743 0.743
22.325 2000 0.744 0.744 2000 0.744 0.744 0.744 0.744
22.350 2000 0.745 0.745 2000 0.745 0.745 0.745 0.745
22.375 2000 0.746 0.746 2000 0.746 0.746 0.746 0.746
22.400 2000 0.747 0.747 2000 0.747 0.747 0.747 0.747
22.425 2000 0.748 0.748 2000 0.748 0.748 0.748 0.748
22.450 2000 0.748 0.748 2000 0.748 0.748 0.748 0.748
22.475 2000 0.749 0.749 2000 0.749 0.749 0.749 0.749
22.500 2000 0.750 0.750 2000 0.750 0.750 0.750 0.750
22.525 2000 0.751 0.751 2000 0.751 0.751 0.751 0.751
22.550 2000 0.752 0.752 2000 0.752 0.752 0.752 0.752
22.575 2000 0.752 0.752 2000 0.752 0.752 0.752 0.752
22.600 2000 0.753 0.753 2000 0.753 0.753 0.753 0.753
22.625 2000 0.754 0.754 2000 0.754 0.754 0.754 0.754
22.650 2000 0.755 0.755 2000 0.755 0.755 0.755 0.755
22.675 2000 0.756 0.756 2000 0.756 0.756 0.756 0.756
22.700 2000 0.757 0.757 2000 0.757 0.757 0.757 0.757
22.725 2000 0.757 0.757 2000 0.757 0.757 0.757 0.757
22.750 2000 0.758 0.758 2000 0.758 0.758 0.758 0.758
22.775 2000 0.759 0.759 2000 0.759 0.759 0.759 0.759
22.800 2000 0.760 0.760 2000 0.760 0.760 0.760 0.760
22.825 2000 0.761 0.761 2000 0.761 0.761 0.761 0.761
22.850 2000 0.762 0.762 2000 0.762 0.762 0.762 0.762
22.875 2000 0.762 0.762 2000 0.762 0.762 0.762 0.762
22.900 2000 0.763 0.763 2000 0.763 0.763 0.763 0.763
22.925 2000 0.764 0.764 2000 0.764 0.764 0.764 0.764
22.950 2000 0.765 0.765 2000 0.765 0.765 0.765 0.765
22.975 2000 0.766 0.766 2000 0.766 0.766 0.766 0.766
23.000 2000 0.767 0.767 2000 0.767 0.767 0.767 0.767
23.025 2000 0.767 0.767 2000 0.767 0.767 0.767 0.767
23.050 2000 0.768 0.768 2000 0.768 0.768 0.768 0.768
23.075 2000 0.769 0.769 2000 0.769 0.769 0.769 0.769
23.100 2000 0.770 0.770 2000 0.770 0.770 0.770 0.770
23.125 2000 0.771 0.771 2000 0.771 0.771 0.771 0.771
23.150 2000 0.772 0.772 2000 0.772 0.772 0.772 0.772
23.175 2000 0.772 0.772 2000 0.772 0.772 0.772 0.772
23.200 2000 0.773 0.773 2000 0.773 0.773 0.773 0.773
23.225 2000 0.774 0.774 2000 0.774 0.774 0.774 0.774
23.250 2000 0.775 0.775 2000 0.775 0.775 0.775 0.775
23.275 2000 0.776 0.776 2000 0.776 0.776 0.776 0.776
23.300 2000 0.777 0.777 2000 0.777 0.777 0.777 0.777
23.325 2000 0.777 0.777 2000 0.777 0.777 0.777 0.777
23.350 2000 0.778 0.778 2000 0.778 0.778 0.778 0.778
23.375 2000 0.779 0.779 2000 0.779 0.779 0.779 0.779
23.400 2000 0.780 0.780 2000 0.780 0.780 0.780 0.780
23.425 2000 0.781 0.781 2000 0.781 0.781 0.781 0.781
23.450 2000 0.782 0.782 2000 0.782 0.782 0.782 0.782
23.475 2000 0.782 0.782 2000 0.782 0.782 0.782 0.782
23.500 2000 0.783 0.783 2000 0.783 0.783 0.783 0.783
23.525 2000 0.784 0.784 2000 0.784 0.784 0.784 0.784
23.550 2000 0.785 0.785 2000 0.785 0.785 0.785 0.785
23.575 2000 0.786 0.786 2000 0.786 0.786 0.786 0.786
23.600 2000 0.787 0.787 2000 0.787 0.787 0.787 0.787
23.625 2000 0.787 0.787 2000 0.787 0.787 0.787 0.787
23.650 2000 0.788 0.788 2000 0.788 0.788 0.788 0.788
23.675 2000 0.789 0.789 2000 0.789 0.789 0.789 0.789
23.700 2000 0.790 0.790 2000 0.790 0.790 0.790 0.790
23.725 2000 0.791 0.791 2000 0.791 0.791 0.791 0.791
23.750 2000 0.792 0.792 2000 0.792 0.792 0.792 0.792
23.775 2000 0.792 0.792 2000 0.792 0.792 0.792 0.792
23.800 2000 0.793 0.793 2000 0.793 0.793 0.793 0.793
23.825 2000 0.794 0.794 2000 0.794 0.794 0.794 0.794
23.850 2000 0.795 0.795 2000 0.795 0.795 0.795 0.795
23.875 2000 0.796 0.796 2000 0.796 0.796 0.796 0.796
23.900 2000 0.797 0.797 2000 0.797 0.797 0.797 0.797
23.925 2000 0.797 0.797 2000 0.797 0.797 0.797 0.797
23.950 2000 0.798 0.798 2000 0.798 0.798 0.798 0.798
23.975 2000 0.799 0.799 2000 0.799 0.799 0.799 0.799
24.000 2000 0.800 0.800 2000 0.800 0.800 0.800 0.800
24.025 2000 0.801 0.801 2000 0.801 0.801 0.801 0.801
24.050 2000 0.802 0.802 2000 0.802 0.802 0.802 0.802
24.075 2000 0.802 0.802 2000 0.802 0.802 0.802 0.802
24.100 2000 0.803 0.803 2000 0.803 0.803 0.803 0.803
24.125 2000 0.804 0.804 2000 0.804 0.804 0.804 0.804
24.150 2000 0.805 0.805 2000 0.805 0.805 0.805 0.805
24.175 2000 0.806 0.806 2000 0.806 0.806 0.806 0.806
24.200 2000 0.807 0.807 2000 0.807 0.807 0.807 0.807
24.225 2000 0.807 0.807 2000 0.807 0.807 0.807 0.807
24.250 2000 0.808 0.808 2000 0.808 0.808 0.808 0.808
24.275 2000 0.809 0.809 2000 0.809 0.809 0.809 0.809
24.300 2000 0.810 0.810 2000 0.810 0.810 0.810 0.810
24.325 2000 0.811 0.811 2000 0.811 0.811 0.811 0.811
24.350 2000 0.812 0.812 2000 0.812 0.812 0.812 0.812
24.375 2000 0.812 0.812 2000 0.812 0.812 0.812 0.812
24.400 2000 0.813 0.813 2000 0.813 0.813 0.813 0.813
24.425 2000 0.814 0.814 2000 0.814 0.814 0.814 0.814
24.450 2000 0.815 0.815 2000 0.815 0.815 0.815 0.815
24.475 2000 0.816 0.816 2000 0.816 0.816 0.816 0.816
24.500 2000 0.817 0.817 2000 0.817 0.817 0.817 0.817
24.525 2000 0.818 0.818 2000 0.818 0.818 0.818 0.818
24.550 2000 0.818 0.818 2000 0.818 0.818 0.818 0.818
24.575 2000 0.819 0.819 2000 0.819 0.819 0.819 0.819
24.600 2000 0.820 0.820 2000 0.820 0.820 0.820 0.820
24.625 2000 0.821 0.821 2000 0.821 0.821 0.821 0.821
24.650 2000 0.822 0.822 2000 0.822 0.822 0.822 0.822
24.675 2000 0.823 0.823 2000 0.823 0.823 0.823 0.823
24.700 2000 0.823 0.823 2000 0.823 0.823 0.823 0.823
24.725 2000 0.824 0.824 2000 0.824 0.824 0.824 0.824
24.750 2000 0.825 0.825 2000 0.825 0.825 0.825 0.825
24.775 2000 0.826 0.826 2000 0.826 0.826 0.826 0.826
24.800 2000 0.827 0.827 2000 0.827 0.827 0.827 0.827
24.825 2000 0.828 0.828 2000 0.828 0.828 0.828 0.828
24.850 2000 0.828 0.828 2000 0.828 0.828 0.828 0.828
24.875 2000 0.829 0.829 2000 0.829 0.829 0.829 0.829
24.900 2000 0.830 0.830 2000 0.830 0.830 0.830 0.830
24.925 2000 0.831 0.831 2000 0.831 0.831 0.831 0.831
24.950 2000 0.832 0.832 2000 0.832 0.832 0.832 0.832
24.975 2000 0.833 0.833 2000 0.833 0.833 0.833 0.833
25.000 2000 0.833 0.833 2000 0.833 0.833 0.833 0.833
25.025 2000 0.834 0.834 2000 0.834 0.834 0.834 0.834
25.050 2000 0.835 0.835 2000 0.835 0.835 0.835 0.835
25.075 2000 0.836 0.836 2000 0.836 0.836 0.836 0.836
25.100 2000 0.837 0.837 2000 0.837 0.837 0.837 0.837
25.125 2000 0.838 0.838 2000 0.838 0.838 0.838 0.838
25.150 2000 0.838 0.838 2000 0.838 0.838 0.838 0.838
25.175 2000 0.839 0.839 2000 0.839 0.839 0.839 0.839
25.200 2000 0.840 0.840 2000 0.840 0.840 0.840 0.840
25.225 2000 0.841 0.841 2000 0.841 0.841 0.841 0.841
25.250 2000 0.842 0.842 2000 0.842 0.842 0.842 0.842
25.275 2000 0.843 0.843 2000 0.843 0.843 0.843 0.843
25.300 2000 0.843 0.843 2000 0.843 0.843 0.843 0.843
25.325 2000 0.844 0.844 2000 0.844 0.844 0.844 0.844
25.350 2000 0.845 0.845 2000 0.845 0.845 0.845 0.845
25.375 2000 0.846 0.846 2000 0.846 0.846 0.846 0.846
25.400 2000 0.847 0.847 2000 0.847 0.847 0.847 0.847
25.425 2000 0.848 0.848 2000 0.848 0.848 0.848 0.848
25.450 2000 0.848 0.848 2000 0.848 0.848 0.848 0.848
25.475 2000 0.849 0.849 2000 0.849 0.849 0.849 0.849
25.500 2000 0.850 0.850 2000 0.850 0.850 0.850 0.850
25.525 2000 0.851 0.851 2000 0.851 0.851 0.851 0.851
25.550 2000 0.852 0.852 2000 0.852 0.852 0.852 0.852
25.575 2000 0.853 0.853 2000 0.853 0.853 0.853 0.853
25.600 2000 0.853 0.853 2000 0.853 0.853 0.853 0.853
25.625 2000 0.854 0.854 2000 0.854 0.854 0.854 0.854
25.650 2000 0.855 0.855 2000 0.855 0.855 0.855 0.855
25.675 2000 0.856 0.856 2000 0.856 0.856 0.856 0.856
25.700 2000 0.857 0.857 2000 0.857 0.857 0.857 0.857
25.725 2000 0.858 0.858 2000 0.858 0.858 0.858 0.858
25.750 2000 0.858 0.858 2000 0.858 0.858 0.858 0.858
25.775 2000 0.859 0.859 2000 0.859 0.859 0.859 0.859
25.800 2000 0.860 0.860 2000 0.860 0.860 0.860 0.860
25.825 2000 0.861 0.861 2000 0.861 0.861 0.861 0.861
25.850 2000 0.862 0.862 2000 0.862 0.862 0.862 0.862
25.875 2000 0.863 0.863 2000 0.863 0.863 0.863 0.863
25.900 2000 0.863 0.863 2000 0.863 0.863 0.863 0.863
25.925 2000 0.864 0.864 2000 0.864 0.864 0.864 0.864
25.950 2000 0.865 0.865 2000 0.865 0.865 0.865 0.865
25.975 2000 0.866 0.866 2000 0.866 0.866 0.866 0.866
26.000 2000 0.867 0.867 2000 0.867 0.867 0.867 0.867
26.025 2000 0.868 0.868 2000 0.868 0.868 0.868 0.868
26.050 2000 0.868 0.868 2000 0.868 0.868 0.868 0.868
26.075 2000 0.869 0.869 2000 0.869 0.869 0.869 0.869
26.100 2000 0.870 0.870 2000 0.870 0.870 0.870 0.870
26.125 2000 0.871 0.871 2000 0.871 0.871 0.871 0.871
26.150 2000 0.872 0.872 2000 0.872 0.872 0.872 0.872
26.175 2000 0.873 0.873 2000 0.873 0.873 0.873 0.873
26.200 2000 0.873 0.873 2000 0.873 0.873 0.873 0.873
26.225 2000 0.874 0.874 2000 0.874 0.874 0.874 0.874
26.250 2000 0.875 0.875 2000 0.875 0.875 0.875 0.875
26.275 2000 0.876 0.876 2000 0.876 0.876 0.876 0.876
26.300 2000 0.877 0.877 2000 0.877 0.877 0.877 0.877
26.325 2000 0.877 0.877 2000 0.877 0.877 0.877 0.877
26.350 2000 0.878 0.878 2000 0.878 0.878 0.878 0.878
26.375 2000 0.879 0.879 2000 0.879 0.879 0.879 0.879
26.400 2000 0.880 0.880 2000 0.880 0.880 0.880 0.880
26.425 2000 0.881 0.881 2000 0.881 0.881 0.881 0.881
26.450 2000 0.882 0.882 2000 0.882 0.882 0.882 0.882
26.475 2000 0.882 0.882 2000 0.882 0.882 0.882 0.882
26.500 2000 0.883 0.883 2000 0.883 0.883 0.883 0.883
26.525 2000 0.884 0.884 2000 0.884 0.884 0.884 0.884
26.550 2000 0.885 0.885 2000 0.885 0.885 0.885 0.885
26.575 2000 0.886 0.886 2000 0.886 0.886 0.886 0.886
26.600 2000 0.887 0.887 2000 0.887 0.887 0.887 0.887
26.625 2000 0.887 0.887 2000 0.887 0.887 0.887 0.887
26.650 2000 0.888 0.888 2000 0.888 0.888 0.888 0.888
26.675 2000 0.889 0.889 2000 0.889 0.889 0.889 0.889
26.700 2000 0.890 0.890 2000 0.890 0.890 0.890 0.890
26.725 2000 0.891 0.891 2000 0.891 0.891 0.891 0.891
26.750 2000 0.892 0.892 2000 0.892 0.892 0.892 0.892
26.775 2000 0.892 0.892 2000 0.892 0.892 0.892 0.892
26.800 2000 0.893 0.893 2000 0.893 0.893 0.893 0.893
26.825 2000 0.894 0.894 2000 0.894 0.894 0.894 0.894
26.850 2000 0.895 0.895 2000 0.895 0.895 0.895 0.895
26.875 2000 0.896 0.896 2000 0.896 0.896 0.896 0.896
26.900 2000 0.897 0.897 2000 0.897 0.897 0.897 0.897
26.925 2000 0.897 0.897 2000 0.897 0.897 0.897 0.897
26.950 2000 0.898 0.898 2000 0.898 0.898 0.898 0.898
26.975 2000 0.899 0.899 2000 0.899 0.899 0.899 0.899
27.000 2000 0.900 0.900 2000 0.900 0.900 0.900 0.900
27.025 2000 0.901 0.901 2000 0.901 0.901 0.901 0.901
27.050 2000 0.902 0.902 2000 0.902 0.902 0.902 0.902
27.075 2000 0.902 0.902 2000 0.902 0.902 0.902 0.902
27.100 2000 0.903 0.903 2000 0.903 0.903 0.903 0.903
27.125 2000 0.904 0.904 2000 0.904 0.904 0.904 0.904
27.150 2000 0.905 0.905 2000 0.905 0.905 0.905 0.905
27.175 2000 0.906 0.906 2000 0.906 0.906 0.906 0.906
27.200 2000 0.907 0.907 2000 0.907 0.907 0.907 0.907
27.225 2000 0.907 0.907 2000 0.907 0.907 0.907 0.907
27.250 2000 0.908 0.908 2000 0.908 0.908 0.908 0.908
27.275 2000 0.909 0.909 2000 0.909 0.909 0.909 0.909
27.300 2000 0.910 0.910 2000 0.910 0.910 0.910 0.910
27.325 2000 0.911 0.911 2000 0.911 0.911 0.911 0.911
27.350 2000 0.912 0.912 2000 0.912 0.912 0.912 0.912
27.375 2000 0.912 0.912 2000 0.912 0.912 0.912 0.912
27.400 2000 0.913 0.913 2000 0.913 0.913 0.913 0.913
27.425 2000 0.914 0.914 2000 0.914 0.914 0.914 0.914
27.450 2000 0.915 0.915 2000 0.915 0.915 0.915 0.915
27.475 2000 0.916 0.916 2000 0.916 0.916 0.916 0.916
27.500 2000 0.917 0.917 2000 0.917 0.917 0.917 0.917
27.525 2000 0.917 0.917 2000 0.917 0.917 0.917 0.917
27.550 2000 0.918 0.918 2000 0.918 0.918 0.918 0.918
27.575 2000 0.919 0.919 2000 0.919 0.919 0.919 0.919
27.600 2000 0.920 0.920 2000 0.920 0.920 0.920 0.920
27.625 2000 0.921 0.921 2000 0.921 0.921 0.921 0.921
27.650 2000 0.922 0.922 2000 0.922 0.922 0.922 0.922
27.675 2000 0.922 0.922 2000 0.922 0.922 0.922 0.922
27.700 2000 0.923 0.923 2000 0.923 0.923 0.923 0.923
27.725 2000 0.924 0.924 2000 0.924 0.924 0.924 0.924
27.750 2000 0.925 0.925 2000 0.925 0.925 0.925 0.925
27.775 2000 0.926 0.926 2000 0.926 0.926 0.926 0.926
27.800 2000 0.927 0.927 2000 0.927 0.927 0.927 0.927
27.825 2000 0.927 0.927 2000 0.927 0.927 0.927 0.927
27.850 2000 0.928 0.928 2000 0.928 0.928 0.928 0.928
27.875 2000 0.929 0.929 2000 0.929 0.929 0.929 0.929
27.900 2000 0.930 0.930 2000 0.930 0.930 0.930 0.930
27.925 2000 0.931 0.931 2000 0.931 0.931 0.931 0.931
27.950 2000 0.932 0.932 2000 0.932 0.932 0.932 0.932
27.975 2000 0.932 0.932 2000 0.932 0.932 0.932 0.932
28.000 2000 0.933 0.933 2000 0.933 0.933 0.933 0.933
28.025 2000 0.934 0.934 2000 0.934 0.934 0.934 0.934
28.050 2000 0.935 0.935 2000 0.935 0.935 0.935 0.935
28.075 2000 0.936 0.936 2000 0.936 0.936 0.936 0.936
28.100 2000 0.937 0.937 2000 0.937 0.937 0.937 0.937
28.125 2000 0.938 0.938 2000 0.938 0.938 0.938 0.938
28.150 2000 0.938 0.938 2000 0.938 0.938 0.938 0.938
28.175 2000 0.939 0.939 2000 0.939 0.939 0.939 0.939
28.200 2000 0.940 0.940 2000 0.940 0.940 0.940 0.940
28.225 2000 0.941 0.941 2000 0.941 0.941 0.941 0.941
28.250 2000 0.942 0.942 2000 0.942 0.942 0.942 0.942
28.275 2000 0.943 0.943 2000 0.943 0.943 0.943 0.943
28.300 2000 0.943 0.943 2000 0.943 0.943 0.943 0.943
28.325 2000 0.944 0.944 2000 0.944 0.944 0.944 0.944
28.350 2000 0.945 0.945 2000 0.945 0.945 0.945 0.945
28.375 2000 0.946 0.946 2000 0.946 0.946 0.946 0.946
28.400 2000 0.947 0.947 2000 0.947 0.947 0.947 0.947
28.425 2000 0.948 0.948 2000 0.948 0.948 0.948 0.948
28.450 2000 0.948 0.948 2000 0.948 0.948 0.948 0.948
28.475 2000 0.949 0.949 2000 0.949 0.949 0.949 0.949
28.500 2000 0.950 0.950 2000 0.950 0.950 0.950 0.950
28.525 2000 0.951 0.951 2000 0.951 0.951 0.951 0.951
28.550 2000 0.952 0.952 2000 0.952 0.952 0.952 0.952
28.575 2000 0.953 0.953 2000 0.953 0.953 0.953 0.953
28.600 2000 0.953 0.953 2000 0.953 0.953 0.953 0.953
28.625 2000 0.954 0.954 2000 0.954 0.954 0.954 0.954
28.650 2000 0.955 0.955 2000 0.955 0.955 0.955 0.955
28.675 2000 0.956 0.956 2000 0.956 0.956 0.956 0.956
28.700 2000 0.957 0.957 2000 0.957 0.957 0.957 0.957
28.725 2000 0.958 0.958 2000 0.958 0.958 0.958 0.958
28.750 2000 0.958 0.958 2000 0.958 0.958 0.958 0.958
28.775 2000 0.959 0.959 2000 0.959 0.959 0.959 0.959
28.800 2000 0.960 0.960 2000 0.960 0.960 0.960 0.960
28.825 2000 0.961 0.961 2000 0.961 0.961 0.961 0.961
28.850 2000 0.962 0.962 2000 0.962 0.962 0.962 0.962
28.875 2000 0.963 0.963 2000 0.963 0.963 0.963 0.963
28.900 2000 0.963 0.963 2000 0.963 0.963 0.963 0.963
28.925 2000 0.964 0.964 2000 0.964 0.964 0.964 0.964
28.950 2000 0.965 0.965 2000 0.965 0.965 0.965 0.965
28.975 2000 0.966 0.966 2000 0.966 0.966 0.966 0.966
29.000 2000 0.967 0.967 2000 0.967 0.967 0.967 0.967
29.025 2000 0.968 0.968 2000 0.968 0.968 0.968 0.968
29.050 2000 0.968 0.968 2000 0.968 0.968 0.968 0.968
29.075 2000 0.969 0.969 2000 0.969 0.969 0.969 0.969
29.100 2000 0.970 0.970 2000 0.970 0.970 0.970 0.970
29.125 2000 0.971 0.971 2000 0.971 0.971 0.971 0.971
29.150 2000 0.972 0.972 2000 0.972 0.972 0.972 0.972
29.175 2000 0.973 0.973 2000 0.973 0.973 0.973 0.973
29.200 2000 0.973 0.973 2000 0.973 0.973 0.973 0.973
29.225 2000 0.974 0.974 2000 0.974 0.974 0.974 0.974
29.250 2000 0.975 0.975 2000 0.975 0.975 0.975 0.975
29.275 2000 0.976 0.976 2000 0.976 0.976 0.976 0.976
29.300 2000 0.977 0.977 2000 0.977 0.977 0.977 0.977
29.325 2000 0.978 0.978 2000 0.978 0.978 0.978 0.978
29.350 2000 0.978 0.978 2000 0.978 0.978 0.978 0.978
29.375 2000 0.979 0.979 2000 0.979 0.979 0.979 0.979
29.400 2000 0.980 0.980 2000 0.980 0.980 0.980 0.980
29.425 2000 0.981 0.981 2000 0.981 0.981 0.981 0.981
29.450 2000 0.982 0.982 2000 0.982 0.982 0.982 0.982
29.475 2000 0.983 0.983 2000 0.983 0.983 0.983 0.983
29.500 2000 0.983 0.983 2000 0.983 0.983 0.983 0.983
29.525 2000 0.984 0.984 2000 0.984 0.984 0.984 0.984
29.550 2000 0.985 0.985 2000 0.985 0.985 0.985 0.985
29.575 2000 0.986 0.986 2000 0.986 0.986 0.986 0.986
29.600 2000 0.987 0.987 2000 0.987 0.987 0.987 0.987
29.625 2000 0.988 0.988 2000 0.988 0.988 0.988 0.988
29.650 2000 0.988 0.988 2000 0.988 0.988 0.988 0.988
29.675 2000 0.989 0.989 2000 0.989 0.989 0.989 0.989
29.700 2000 0.990 0.990 2000 0.990 0.990 0.990 0.990
29.725 2000 0.991 0.991 2000 0.991 0.991 0.991 0.991
29.750 2000 0.992 0.992 2000 0.992 0.992 0.992 0.992
29.775 2000 0.993 0.993 2000 0.993 0.993 0.993 0.993
29.800 2000 0.993 0.993 2000 0.993 0.993 0.993 0.993
29.825 2000 0.994 0.994 2000 0.994 0.994 0.994 0.994
29.850 2000 0.995 0.995 2000 0.995 0.995 0.995 0.995
29.875 2000 0.996 0.996 2000 0.996 0.996 0.996 0.996
29.900 2000 0.997 0.997 2000 0.997 0.997 0.997 0.997
29.925 2000 0.998 0.998 2000 0.998 0.998 0.998 0.998
29.950 2000 0.998 0.998 2000 0.998 0.998 0.998 0.998
29.975 2000 0.999 0.999 2000 0.999 0.999 0.999 0.999
30.000 2000 1.000 1.000 2000 1.000 1.000 1.000 1.000
